trials.thisRepN,trials.thisTrialN,trials.thisN,trials.thisIndex,trials_2.thisRepN,trials_2.thisTrialN,trials_2.thisN,trials_2.thisIndex,trials_5.thisRepN,trials_5.thisTrialN,trials_5.thisN,trials_5.thisIndex,trials_3.thisRepN,trials_3.thisTrialN,trials_3.thisN,trials_3.thisIndex,trials_4.thisRepN,trials_4.thisTrialN,trials_4.thisN,trials_4.thisIndex,Welcome.started,Welcome.stopped,Description.started,Description.stopped,text_blank4.started,text_blank4.stopped,Description_Speaking_Text.started,Description_Speaking_Text.stopped,image.started,image.stopped,TIMESTAMP_Speaking_Start,Speaking_Text.started,Speaking_Text.stopped,TIMESTAMP_Speaking_End,text_Yawning.started,text_Yawning.stopped,TIMESTAMP_Yawning_Start,image_2.started,image_2.stopped,TIMESTAMP_Yawning_End,text_3.started,text_3.stopped,TIMESTAMP_Resting_Start,image_3.started,image_3.stopped,TIMESTAMP_Resting_End,text_7.started,text_7.stopped,TIMESTAMP_Resting_Eyes_Closed_Start,sound_1.started,sound_1.stopped,TIMESTAMP_Resting_Eyes_Closed_End,text_4.started,text_4.stopped,TIMESTAMP_Eating_NSF_Start,image_4.started,image_4.stopped,TIMESTAMP_Eating_NSF_End,text_6.started,text_6.stopped,TIMESTAMP_Eating_Nuts_Start,image_6.started,image_6.stopped,TIMESTAMP_Eating_Nuts_End,TIMESTAMP_Eating_Bread_Start,image_5.started,image_5.stopped,TIMESTAMP_Eating_Bread_End,End_Experiment,participant,session,date,expName,psychopyVersion,frameRate,
0,0,0,0,,,,,,,,,,,,,,,,,77.53280403499957,None,77.53280403499957,None,131.31515576597303,None,86.27797375200316,None,86.27797375200316,None,1640002950.957495,91.31113364698831,None,1640002990.933534,,,,,,,,,,,,,,,,,,,,,,,,,,,,,,,,,,,,LS,001,2021_Dec_20_1321,food_intake,2021.2.3,None,
1,0,1,0,,,,,,,,,,,,,,,,,,,,,175.34572493098676,None,,,,,1640002994.9236438,135.28393595200032,None,1640003034.994762,,,,,,,,,,,,,,,,,,,,,,,,,,,,,,,,,,,,LS,001,2021_Dec_20_1321,food_intake,2021.2.3,None,
,,,,0,0,0,0,,,,,,,,,,,,,,,,,187.29665817297064,None,,,,,,,,,179.3185558670084,None,1640003043.960549,184.30372694000835,None,1640003046.9415512,,,,,,,,,,,,,,,,,,,,,,,,,,,,,,LS,001,2021_Dec_20_1321,food_intake,2021.2.3,None,
,,,,1,0,1,0,,,,,,,,,,,,,,,,,194.27396490296815,None,,,,,,,,,,,1640003050.952389,191.34190997999394,None,1640003053.9264169,,,,,,,,,,,,,,,,,,,,,,,,,,,,,,LS,001,2021_Dec_20_1321,food_intake,2021.2.3,None,
,,,,2,0,2,0,,,,,,,,,,,,,,,,,201.3226738969679,None,,,,,,,,,,,1640003057.951007,198.3088847589679,None,1640003060.969059,,,,,,,,,,,,,,,,,,,,,,,,,,,,,,LS,001,2021_Dec_20_1321,food_intake,2021.2.3,None,
,,,,3,0,3,0,,,,,,,,,,,,,,,,,208.2657746640034,None,,,,,,,,,,,1640003064.929769,205.28722215100424,None,1640003067.922603,,,,,,,,,,,,,,,,,,,,,,,,,,,,,,LS,001,2021_Dec_20_1321,food_intake,2021.2.3,None,
,,,,4,0,4,0,,,,,,,,,,,,,,,,,215.30105949396966,None,,,,,,,,,,,1640003071.944912,212.30556917801732,None,1640003074.9486132,,,,,,,,,,,,,,,,,,,,,,,,,,,,,,LS,001,2021_Dec_20_1321,food_intake,2021.2.3,None,
,,,,5,0,5,0,,,,,,,,,,,,,,,,,222.26122983300593,None,,,,,,,,,,,1640003078.919478,219.2508122730069,None,1640003081.913045,,,,,,,,,,,,,,,,,,,,,,,,,,,,,,LS,001,2021_Dec_20_1321,food_intake,2021.2.3,None,
,,,,6,0,6,0,,,,,,,,,,,,,,,,,229.28474084998015,None,,,,,,,,,,,1640003085.9435258,226.28375334996963,None,1640003088.927413,,,,,,,,,,,,,,,,,,,,,,,,,,,,,,LS,001,2021_Dec_20_1321,food_intake,2021.2.3,None,
,,,,7,0,7,0,,,,,,,,,,,,,,,,,236.34275274700485,None,,,,,,,,,,,1640003092.9437811,233.27141141501488,None,1640003095.991384,,,,,,,,,,,,,,,,,,,,,,,,,,,,,,LS,001,2021_Dec_20_1321,food_intake,2021.2.3,None,
,,,,8,0,8,0,,,,,,,,,,,,,,,,,243.2922350980225,None,,,,,,,,,,,1640003099.957348,240.2818494309904,None,1640003102.951784,,,,,,,,,,,,,,,,,,,,,,,,,,,,,,LS,001,2021_Dec_20_1321,food_intake,2021.2.3,None,
,,,,9,0,9,0,,,,,,,,,,,,,,,,,250.3156152589945,None,,,,,,,,,,,1640003106.931701,247.2720547299832,None,1640003109.968888,,,,,,,,,,,,,,,,,,,,,,,,,,,,,,LS,001,2021_Dec_20_1321,food_intake,2021.2.3,None,
,,,,10,0,10,0,,,,,,,,,,,,,,,,,257.29129172099056,None,,,,,,,,,,,1640003113.965258,254.3308314619935,None,1640003116.9519942,,,,,,,,,,,,,,,,,,,,,,,,,,,,,,LS,001,2021_Dec_20_1321,food_intake,2021.2.3,None,
,,,,11,0,11,0,,,,,,,,,,,,,,,,,264.2754474480171,None,,,,,,,,,,,1640003120.925169,261.2695246110088,None,1640003123.922858,,,,,,,,,,,,,,,,,,,,,,,,,,,,,,LS,001,2021_Dec_20_1321,food_intake,2021.2.3,None,
,,,,12,0,12,0,,,,,,,,,,,,,,,,,271.3672775569721,None,,,,,,,,,,,1640003127.942119,268.28893171501113,None,1640003130.9736462,,,,,,,,,,,,,,,,,,,,,,,,,,,,,,LS,001,2021_Dec_20_1321,food_intake,2021.2.3,None,
,,,,13,0,13,0,,,,,,,,,,,,,,,,,278.3442182110157,None,,,,,,,,,,,1640003134.989825,275.31945017998805,None,1640003137.997715,,,,,,,,,,,,,,,,,,,,,,,,,,,,,,LS,001,2021_Dec_20_1321,food_intake,2021.2.3,None,
,,,,14,0,14,0,,,,,,,,,,,,,,,,,285.2982756579877,None,,,,,,,,,,,1640003141.926263,282.2831942809862,None,1640003144.953564,,,,,,,,,,,,,,,,,,,,,,,,,,,,,,LS,001,2021_Dec_20_1321,food_intake,2021.2.3,None,
,,,,15,0,15,0,,,,,,,,,,,,,,,,,292.28652941901237,None,,,,,,,,,,,1640003148.979081,289.3546551860054,None,1640003151.93938,,,,,,,,,,,,,,,,,,,,,,,,,,,,,,LS,001,2021_Dec_20_1321,food_intake,2021.2.3,None,
,,,,16,0,16,0,,,,,,,,,,,,,,,,,299.26189508097013,None,,,,,,,,,,,1640003155.95503,296.30803482997,None,1640003158.9066932,,,,,,,,,,,,,,,,,,,,,,,,,,,,,,LS,001,2021_Dec_20_1321,food_intake,2021.2.3,None,
,,,,17,0,17,0,,,,,,,,,,,,,,,,,306.3202075709705,None,,,,,,,,,,,1640003162.966465,303.33719294599723,None,1640003165.9640162,,,,,,,,,,,,,,,,,,,,,,,,,,,,,,LS,001,2021_Dec_20_1321,food_intake,2021.2.3,None,
,,,,18,0,18,0,,,,,,,,,,,,,,,,,313.2634852419724,None,,,,,,,,,,,1640003169.932526,310.26624056498986,None,1640003172.9206889,,,,,,,,,,,,,,,,,,,,,,,,,,,,,,LS,001,2021_Dec_20_1321,food_intake,2021.2.3,None,
,,,,19,0,19,0,,,,,,,,,,,,,,,,,320.27700260601705,None,,,,,,,,,,,1640003176.945059,317.2807514219894,None,1640003179.9418712,,,,,,,,,,,,,,,,,,,,,,,,,,,,,,LS,001,2021_Dec_20_1321,food_intake,2021.2.3,None,
,,,,,,,,0,0,0,0,,,,,,,,,,,,,369.2601370969787,None,,,,,,,,,,,,,,,324.3382488769712,None,1640003188.950115,329.2912215900142,None,1640003228.9244318,,,,,,,,,,,,,,,,,,,,,,,,LS,001,2021_Dec_20_1321,food_intake,2021.2.3,None,
,,,,,,,,1,0,1,0,,,,,,,,,,,,,413.263723542972,None,,,,,,,,,,,,,,,,,1640003232.985161,373.31945654097944,None,1640003272.923486,,,,,,,,,,,,,,,,,,,,,,,,LS,001,2021_Dec_20_1321,food_intake,2021.2.3,None,
,,,,,,,,,,,,0,0,0,0,,,,,,,,,560.3555626830203,None,,,,,,,,,,,,,,,,,,,,,417.2937754439772,None,1640003281.938242,461.24926354567674,None,1640003321.94132,466.26443502597976,None,1640003330.913568,471.249536858988,None,1640003370.940309,515.3684462080128,None,1640003379.978205,520.3210972649977,None,1640003420.00817,,,,,,LS,001,2021_Dec_20_1321,food_intake,2021.2.3,None,
,,,,,,,,,,,,1,0,1,0,,,,,,,,,604.2748618159676,None,,,,,,,,,,,,,,,,,,,,,,,,,,,,,,,,,,,1640003423.925858,564.2480140890111,None,1640003463.9305449,,,,,,LS,001,2021_Dec_20_1321,food_intake,2021.2.3,None,
,,,,,,,,,,,,,,,,0,0,0,0,,,,,648.2748171690037,None,,,,,,,,,,,,,,,,,,,,,,,,,,,,,,,,,,,,,,,1640003467.956445,608.2897934779758,None,1640003507.943007,,LS,001,2021_Dec_20_1321,food_intake,2021.2.3,None,
,,,,,,,,,,,,,,,,1,0,1,0,,,,,692.2932707840228,None,,,,,,,,,,,,,,,,,,,,,,,,,,,,,,,,,,,,,,,1640003511.951786,652.298046824988,None,1640003551.955658,,LS,001,2021_Dec_20_1321,food_intake,2021.2.3,None,
,,,,,,,,,,,,,,,,,,,,,,,,,,,,,,,,,,,,,,,,,,,,,,,,,,,,,,,,,,,,,,,,,,,,1640003555.947755,,,,,,,
