trials.thisRepN,trials.thisTrialN,trials.thisN,trials.thisIndex,trials_2.thisRepN,trials_2.thisTrialN,trials_2.thisN,trials_2.thisIndex,trials_5.thisRepN,trials_5.thisTrialN,trials_5.thisN,trials_5.thisIndex,trials_3.thisRepN,trials_3.thisTrialN,trials_3.thisN,trials_3.thisIndex,trials_4.thisRepN,trials_4.thisTrialN,trials_4.thisN,trials_4.thisIndex,Welcome.started,Welcome.stopped,Description.started,Description.stopped,text_blank4.started,text_blank4.stopped,Description_Speaking_Text.started,Description_Speaking_Text.stopped,image.started,image.stopped,TIMESTAMP_Speaking_Start,Speaking_Text.started,Speaking_Text.stopped,TIMESTAMP_Speaking_End,text_Yawning.started,text_Yawning.stopped,TIMESTAMP_Yawning_Start,image_2.started,image_2.stopped,TIMESTAMP_Yawning_End,text_3.started,text_3.stopped,TIMESTAMP_Resting_Start,image_3.started,image_3.stopped,TIMESTAMP_Resting_End,text_7.started,text_7.stopped,TIMESTAMP_Resting_Eyes_Closed_Start,sound_1.started,sound_1.stopped,TIMESTAMP_Resting_Eyes_Closed_End,text_4.started,text_4.stopped,TIMESTAMP_Eating_NSF_Start,image_4.started,image_4.stopped,TIMESTAMP_Eating_NSF_End,text_6.started,text_6.stopped,TIMESTAMP_Eating_Nuts_Start,image_6.started,image_6.stopped,TIMESTAMP_Eating_Nuts_End,TIMESTAMP_Eating_Bread_Start,image_5.started,image_5.stopped,TIMESTAMP_Eating_Bread_End,End_Experiment,participant,session,date,expName,psychopyVersion,frameRate,
0,0,0,0,,,,,,,,,,,,,,,,,34.518695902021136,None,34.518695902021136,None,88.36718094401294,None,43.426379218988586,None,43.426379218988586,None,1640002178.363816,48.42736913799308,None,1640002218.321565,,,,,,,,,,,,,,,,,,,,,,,,,,,,,,,,,,,,Lukas Stingl,001,2021_Dec_20_1309,food_intake,2021.2.3,None,
1,0,1,0,,,,,,,,,,,,,,,,,,,,,132.39416169497417,None,,,,,1640002222.353119,92.4170880530146,None,1640002262.335448,,,,,,,,,,,,,,,,,,,,,,,,,,,,,,,,,,,,Lukas Stingl,001,2021_Dec_20_1309,food_intake,2021.2.3,None,
,,,,0,0,0,0,,,,,,,,,,,,,,,,,144.4089200249873,None,,,,,,,,,136.4060711839702,None,1640002271.346905,141.40528871899005,None,1640002274.354072,,,,,,,,,,,,,,,,,,,,,,,,,,,,,,Lukas Stingl,001,2021_Dec_20_1309,food_intake,2021.2.3,None,
,,,,1,0,1,0,,,,,,,,,,,,,,,,,151.3785314100096,None,,,,,,,,,,,1640002278.346533,148.39234396599932,None,1640002281.3310778,,,,,,,,,,,,,,,,,,,,,,,,,,,,,,Lukas Stingl,001,2021_Dec_20_1309,food_intake,2021.2.3,None,
,,,,2,0,2,0,,,,,,,,,,,,,,,,,158.42519194300985,None,,,,,,,,,,,1640002285.343446,155.40067710797302,None,1640002288.360147,,,,,,,,,,,,,,,,,,,,,,,,,,,,,,Lukas Stingl,001,2021_Dec_20_1309,food_intake,2021.2.3,None,
,,,,3,0,3,0,,,,,,,,,,,,,,,,,165.38307752402034,None,,,,,,,,,,,1640002292.3410208,162.38550562300952,None,1640002295.328192,,,,,,,,,,,,,,,,,,,,,,,,,,,,,,Lukas Stingl,001,2021_Dec_20_1309,food_intake,2021.2.3,None,
,,,,4,0,4,0,,,,,,,,,,,,,,,,,172.3973462569993,None,,,,,,,,,,,1640002299.3350232,169.39215935900575,None,1640002302.344012,,,,,,,,,,,,,,,,,,,,,,,,,,,,,,Lukas Stingl,001,2021_Dec_20_1309,food_intake,2021.2.3,None,
,,,,5,0,5,0,,,,,,,,,,,,,,,,,179.4232725650072,None,,,,,,,,,,,1640002306.344831,176.3990604269784,None,1640002309.368665,,,,,,,,,,,,,,,,,,,,,,,,,,,,,,Lukas Stingl,001,2021_Dec_20_1309,food_intake,2021.2.3,None,
,,,,6,0,6,0,,,,,,,,,,,,,,,,,186.3862830590224,None,,,,,,,,,,,1640002313.37533,183.43378730502445,None,1640002316.3317351,,,,,,,,,,,,,,,,,,,,,,,,,,,,,,Lukas Stingl,001,2021_Dec_20_1309,food_intake,2021.2.3,None,
,,,,7,0,7,0,,,,,,,,,,,,,,,,,193.39225252199685,None,,,,,,,,,,,1640002320.3415601,190.39528525801143,None,1640002323.3385139,,,,,,,,,,,,,,,,,,,,,,,,,,,,,,Lukas Stingl,001,2021_Dec_20_1309,food_intake,2021.2.3,None,
,,,,8,0,8,0,,,,,,,,,,,,,,,,,200.42292851902312,None,,,,,,,,,,,1640002327.340805,197.40341912099393,None,1640002330.366924,,,,,,,,,,,,,,,,,,,,,,,,,,,,,,Lukas Stingl,001,2021_Dec_20_1309,food_intake,2021.2.3,None,
,,,,9,0,9,0,,,,,,,,,,,,,,,,,207.43103152600816,None,,,,,,,,,,,1640002334.342582,204.39532034198055,None,1640002337.378665,,,,,,,,,,,,,,,,,,,,,,,,,,,,,,Lukas Stingl,001,2021_Dec_20_1309,food_intake,2021.2.3,None,
,,,,10,0,10,0,,,,,,,,,,,,,,,,,214.40197533200262,None,,,,,,,,,,,1640002341.353208,211.4060802339809,None,1640002344.3475041,,,,,,,,,,,,,,,,,,,,,,,,,,,,,,Lukas Stingl,001,2021_Dec_20_1309,food_intake,2021.2.3,None,
,,,,11,0,11,0,,,,,,,,,,,,,,,,,221.40438283397816,None,,,,,,,,,,,1640002348.3612318,218.41267848701682,None,1640002351.3456619,,,,,,,,,,,,,,,,,,,,,,,,,,,,,,Lukas Stingl,001,2021_Dec_20_1309,food_intake,2021.2.3,None,
,,,,12,0,12,0,,,,,,,,,,,,,,,,,228.38888976699673,None,,,,,,,,,,,1640002355.371304,225.41643834498245,None,1640002358.327775,,,,,,,,,,,,,,,,,,,,,,,,,,,,,,Lukas Stingl,001,2021_Dec_20_1309,food_intake,2021.2.3,None,
,,,,13,0,13,0,,,,,,,,,,,,,,,,,235.4130264900159,None,,,,,,,,,,,1640002362.348245,232.40413637796883,None,1640002365.350956,,,,,,,,,,,,,,,,,,,,,,,,,,,,,,Lukas Stingl,001,2021_Dec_20_1309,food_intake,2021.2.3,None,
,,,,14,0,14,0,,,,,,,,,,,,,,,,,242.39503838901874,None,,,,,,,,,,,1640002369.345361,239.3889723700122,None,1640002372.340672,,,,,,,,,,,,,,,,,,,,,,,,,,,,,,Lukas Stingl,001,2021_Dec_20_1309,food_intake,2021.2.3,None,
,,,,15,0,15,0,,,,,,,,,,,,,,,,,249.42328253900632,None,,,,,,,,,,,1640002376.352819,246.40592502901563,None,1640002379.3657532,,,,,,,,,,,,,,,,,,,,,,,,,,,,,,Lukas Stingl,001,2021_Dec_20_1309,food_intake,2021.2.3,None,
,,,,16,0,16,0,,,,,,,,,,,,,,,,,256.39604190096725,None,,,,,,,,,,,1640002383.360616,253.42989616299747,None,1640002386.3415082,,,,,,,,,,,,,,,,,,,,,,,,,,,,,,Lukas Stingl,001,2021_Dec_20_1309,food_intake,2021.2.3,None,
,,,,17,0,17,0,,,,,,,,,,,,,,,,,263.4240910030203,None,,,,,,,,,,,1640002390.34912,260.40248976199655,None,1640002393.3712718,,,,,,,,,,,,,,,,,,,,,,,,,,,,,,Lukas Stingl,001,2021_Dec_20_1309,food_intake,2021.2.3,None,
,,,,18,0,18,0,,,,,,,,,,,,,,,,,270.3925655009807,None,,,,,,,,,,,1640002397.352312,267.4030169650214,None,1640002400.339519,,,,,,,,,,,,,,,,,,,,,,,,,,,,,,Lukas Stingl,001,2021_Dec_20_1309,food_intake,2021.2.3,None,
,,,,19,0,19,0,,,,,,,,,,,,,,,,,277.4058173149824,None,,,,,,,,,,,1640002404.3357592,274.3844400519738,None,1640002407.355006,,,,,,,,,,,,,,,,,,,,,,,,,,,,,,Lukas Stingl,001,2021_Dec_20_1309,food_intake,2021.2.3,None,
,,,,,,,,0,0,0,0,,,,,,,,,,,,,326.411841535999,None,,,,,,,,,,,,,,,281.41310510400217,None,1640002416.361907,286.4138791040168,None,1640002456.360288,,,,,,,,,,,,,,,,,,,,,,,,Lukas Stingl,001,2021_Dec_20_1309,food_intake,2021.2.3,None,
,,,,,,,,1,0,1,0,,,,,,,,,,,,,370.38045807299204,None,,,,,,,,,,,,,,,,,1640002460.3723168,330.42193626397057,None,1640002500.332972,,,,,,,,,,,,,,,,,,,,,,,,Lukas Stingl,001,2021_Dec_20_1309,food_intake,2021.2.3,None,
,,,,,,,,,,,,0,0,0,0,,,,,,,,,517.3854718409711,None,,,,,,,,,,,,,,,,,,,,,374.4002905560192,None,1640002509.354784,418.36890851264275,None,1640002549.335826,423.38096995902015,None,1640002558.352389,428.4015574149671,None,1640002598.338457,472.40684110397706,None,1640002607.3703349,477.4127098679892,None,1640002647.349944,,,,,,Lukas Stingl,001,2021_Dec_20_1309,food_intake,2021.2.3,None,
,,,,,,,,,,,,1,0,1,0,,,,,,,,,561.3914386249962,None,,,,,,,,,,,,,,,,,,,,,,,,,,,,,,,,,,,1640002651.363735,521.4110610979842,None,1640002691.346245,,,,,,Lukas Stingl,001,2021_Dec_20_1309,food_intake,2021.2.3,None,
,,,,,,,,,,,,,,,,0,0,0,0,,,,,605.3981382090133,None,,,,,,,,,,,,,,,,,,,,,,,,,,,,,,,,,,,,,,,1640002695.362829,565.4048948279815,None,1640002735.355526,,Lukas Stingl,001,2021_Dec_20_1309,food_intake,2021.2.3,None,
,,,,,,,,,,,,,,,,1,0,1,0,,,,,649.4178600910236,None,,,,,,,,,,,,,,,,,,,,,,,,,,,,,,,,,,,,,,,1640002739.372637,609.4128301210003,None,1640002779.375013,,Lukas Stingl,001,2021_Dec_20_1309,food_intake,2021.2.3,None,
,,,,,,,,,,,,,,,,,,,,,,,,,,,,,,,,,,,,,,,,,,,,,,,,,,,,,,,,,,,,,,,,,,,,1640002783.343832,,,,,,,
