trials.thisRepN,trials.thisTrialN,trials.thisN,trials.thisIndex,trials_2.thisRepN,trials_2.thisTrialN,trials_2.thisN,trials_2.thisIndex,trials_5.thisRepN,trials_5.thisTrialN,trials_5.thisN,trials_5.thisIndex,trials_3.thisRepN,trials_3.thisTrialN,trials_3.thisN,trials_3.thisIndex,trials_4.thisRepN,trials_4.thisTrialN,trials_4.thisN,trials_4.thisIndex,Welcome.started,Welcome.stopped,Description.started,Description.stopped,text_blank4.started,text_blank4.stopped,Description_Speaking_Text.started,Description_Speaking_Text.stopped,image.started,image.stopped,TIMESTAMP_Speaking_Start,Speaking_Text.started,Speaking_Text.stopped,TIMESTAMP_Speaking_End,text_Yawning.started,text_Yawning.stopped,TIMESTAMP_Yawning_Start,image_2.started,image_2.stopped,TIMESTAMP_Yawning_End,text_3.started,text_3.stopped,TIMESTAMP_Resting_Start,image_3.started,image_3.stopped,TIMESTAMP_Resting_End,text_7.started,text_7.stopped,TIMESTAMP_Resting_Eyes_Closed_Start,sound_1.started,sound_1.stopped,TIMESTAMP_Resting_Eyes_Closed_End,text_4.started,text_4.stopped,TIMESTAMP_Eating_NSF_Start,image_4.started,image_4.stopped,TIMESTAMP_Eating_NSF_End,text_6.started,text_6.stopped,TIMESTAMP_Eating_Nuts_Start,image_6.started,image_6.stopped,TIMESTAMP_Eating_Nuts_End,TIMESTAMP_Eating_Bread_Start,image_5.started,image_5.stopped,TIMESTAMP_Eating_Bread_End,End_Experiment,participant,session,date,expName,psychopyVersion,frameRate,
0,0,0,0,,,,,,,,,,,,,,,,,16.10368929989636,None,16.10368929989636,None,70.06981060001999,None,25.085093299858272,None,25.085093299858272,None,1639936012.3107865,30.076771900057793,None,1639936052.304323,,,,,,,,,,,,,,,,,,,,,,,,,,,,,,,,,,,,LS,001,2021_Dec_19_1846,food_intake,2021.2.3,145.80490088392528,
1,0,1,0,,,,,,,,,,,,,,,,,,,,,114.07031589979306,None,,,,,1639936056.3050687,74.07019420014694,None,1639936096.3042865,,,,,,,,,,,,,,,,,,,,,,,,,,,,,,,,,,,,LS,001,2021_Dec_19_1846,food_intake,2021.2.3,145.80490088392528,
,,,,0,0,0,0,,,,,,,,,,,,,,,,,126.07091550016776,None,,,,,,,,,118.07063450012356,None,1639936105.3044038,123.07997860014439,None,1639936108.3045878,,,,,,,,,,,,,,,,,,,,,,,,,,,,,,LS,001,2021_Dec_19_1846,food_intake,2021.2.3,145.80490088392528,
,,,,1,0,1,0,,,,,,,,,,,,,,,,,133.07092620013282,None,,,,,,,,,,,1639936112.3052845,130.07095330022275,None,1639936115.30451,,,,,,,,,,,,,,,,,,,,,,,,,,,,,,LS,001,2021_Dec_19_1846,food_intake,2021.2.3,145.80490088392528,
,,,,2,0,2,0,,,,,,,,,,,,,,,,,140.07100080000237,None,,,,,,,,,,,1639936119.3054302,137.07102070003748,None,1639936122.3046422,,,,,,,,,,,,,,,,,,,,,,,,,,,,,,LS,001,2021_Dec_19_1846,food_intake,2021.2.3,145.80490088392528,
,,,,3,0,3,0,,,,,,,,,,,,,,,,,147.0710176997818,None,,,,,,,,,,,1639936126.3048704,144.07118659978732,None,1639936129.3047757,,,,,,,,,,,,,,,,,,,,,,,,,,,,,,LS,001,2021_Dec_19_1846,food_intake,2021.2.3,145.80490088392528,
,,,,4,0,4,0,,,,,,,,,,,,,,,,,154.0711837001145,None,,,,,,,,,,,1639936133.304747,151.07113809976727,None,1639936136.3050597,,,,,,,,,,,,,,,,,,,,,,,,,,,,,,LS,001,2021_Dec_19_1846,food_intake,2021.2.3,145.80490088392528,
,,,,5,0,5,0,,,,,,,,,,,,,,,,,161.07143810018897,None,,,,,,,,,,,1639936140.3046045,158.0712779997848,None,1639936143.305063,,,,,,,,,,,,,,,,,,,,,,,,,,,,,,LS,001,2021_Dec_19_1846,food_intake,2021.2.3,145.80490088392528,
,,,,6,0,6,0,,,,,,,,,,,,,,,,,168.0715061998926,None,,,,,,,,,,,1639936147.304859,165.07140279980376,None,1639936150.3047435,,,,,,,,,,,,,,,,,,,,,,,,,,,,,,LS,001,2021_Dec_19_1846,food_intake,2021.2.3,145.80490088392528,
,,,,7,0,7,0,,,,,,,,,,,,,,,,,175.071749499999,None,,,,,,,,,,,1639936154.3043919,172.07147570000961,None,1639936157.3047056,,,,,,,,,,,,,,,,,,,,,,,,,,,,,,LS,001,2021_Dec_19_1846,food_intake,2021.2.3,145.80490088392528,
,,,,8,0,8,0,,,,,,,,,,,,,,,,,182.07175840018317,None,,,,,,,,,,,1639936161.3043694,179.07168450020254,None,1639936164.3057163,,,,,,,,,,,,,,,,,,,,,,,,,,,,,,LS,001,2021_Dec_19_1846,food_intake,2021.2.3,145.80490088392528,
,,,,9,0,9,0,,,,,,,,,,,,,,,,,189.07144400011748,None,,,,,,,,,,,1639936168.3051567,186.07155170012265,None,1639936171.3043861,,,,,,,,,,,,,,,,,,,,,,,,,,,,,,LS,001,2021_Dec_19_1846,food_intake,2021.2.3,145.80490088392528,
,,,,10,0,10,0,,,,,,,,,,,,,,,,,196.07162130018696,None,,,,,,,,,,,1639936175.3047411,193.07166980020702,None,1639936178.3051968,,,,,,,,,,,,,,,,,,,,,,,,,,,,,,LS,001,2021_Dec_19_1846,food_intake,2021.2.3,145.80490088392528,
,,,,11,0,11,0,,,,,,,,,,,,,,,,,203.07158919982612,None,,,,,,,,,,,1639936182.304457,200.0717968000099,None,1639936185.3046894,,,,,,,,,,,,,,,,,,,,,,,,,,,,,,LS,001,2021_Dec_19_1846,food_intake,2021.2.3,145.80490088392528,
,,,,12,0,12,0,,,,,,,,,,,,,,,,,210.07188999978825,None,,,,,,,,,,,1639936189.3049686,207.0717249000445,None,1639936192.304971,,,,,,,,,,,,,,,,,,,,,,,,,,,,,,LS,001,2021_Dec_19_1846,food_intake,2021.2.3,145.80490088392528,
,,,,13,0,13,0,,,,,,,,,,,,,,,,,217.07191930012777,None,,,,,,,,,,,1639936196.3053327,214.07186730019748,None,1639936199.3054829,,,,,,,,,,,,,,,,,,,,,,,,,,,,,,LS,001,2021_Dec_19_1846,food_intake,2021.2.3,145.80490088392528,
,,,,14,0,14,0,,,,,,,,,,,,,,,,,224.0719599002041,None,,,,,,,,,,,1639936203.305263,221.07193360012025,None,1639936206.305664,,,,,,,,,,,,,,,,,,,,,,,,,,,,,,LS,001,2021_Dec_19_1846,food_intake,2021.2.3,145.80490088392528,
,,,,15,0,15,0,,,,,,,,,,,,,,,,,231.07216770015657,None,,,,,,,,,,,1639936210.3053312,228.07200760021806,None,1639936213.3052387,,,,,,,,,,,,,,,,,,,,,,,,,,,,,,LS,001,2021_Dec_19_1846,food_intake,2021.2.3,145.80490088392528,
,,,,16,0,16,0,,,,,,,,,,,,,,,,,238.07220199983567,None,,,,,,,,,,,1639936217.3053746,235.07204560004175,None,1639936220.3057184,,,,,,,,,,,,,,,,,,,,,,,,,,,,,,LS,001,2021_Dec_19_1846,food_intake,2021.2.3,145.80490088392528,
,,,,17,0,17,0,,,,,,,,,,,,,,,,,245.07191810011864,None,,,,,,,,,,,1639936224.3054872,242.07220710022375,None,1639936227.305624,,,,,,,,,,,,,,,,,,,,,,,,,,,,,,LS,001,2021_Dec_19_1846,food_intake,2021.2.3,145.80490088392528,
,,,,18,0,18,0,,,,,,,,,,,,,,,,,252.0722290999256,None,,,,,,,,,,,1639936231.3055599,249.07219150010496,None,1639936234.3060095,,,,,,,,,,,,,,,,,,,,,,,,,,,,,,LS,001,2021_Dec_19_1846,food_intake,2021.2.3,145.80490088392528,
,,,,19,0,19,0,,,,,,,,,,,,,,,,,259.07231830013916,None,,,,,,,,,,,1639936238.3058639,256.07225169986486,None,1639936241.30552,,,,,,,,,,,,,,,,,,,,,,,,,,,,,,LS,001,2021_Dec_19_1846,food_intake,2021.2.3,145.80490088392528,
,,,,,,,,0,0,0,0,,,,,,,,,,,,,308.072591799777,None,,,,,,,,,,,,,,,263.0720881000161,None,1639936250.305819,268.0731401001103,None,1639936290.3054893,,,,,,,,,,,,,,,,,,,,,,,,LS,001,2021_Dec_19_1846,food_intake,2021.2.3,145.80490088392528,
,,,,,,,,1,0,1,0,,,,,,,,,,,,,352.0733901998028,None,,,,,,,,,,,,,,,,,1639936294.3058825,312.07252629986033,None,1639936334.3066945,,,,,,,,,,,,,,,,,,,,,,,,LS,001,2021_Dec_19_1846,food_intake,2021.2.3,145.80490088392528,
,,,,,,,,,,,,0,0,0,0,,,,,,,,,499.0740514001809,None,,,,,,,,,,,,,,,,,,,,,356.0730862999335,None,1639936343.3058617,400.0594064698089,None,1639936383.2951796,405.0661181001924,None,1639936392.3017595,410.0737862000242,None,1639936432.3069646,454.07363589992747,None,1639936441.3074293,459.0833192002028,None,1639936481.3080215,,,,,,LS,001,2021_Dec_19_1846,food_intake,2021.2.3,145.80490088392528,
,,,,,,,,,,,,1,0,1,0,,,,,,,,,543.0822466998361,None,,,,,,,,,,,,,,,,,,,,,,,,,,,,,,,,,,,1639936485.3081207,503.0742778000422,None,1639936525.3152528,,,,,,LS,001,2021_Dec_19_1846,food_intake,2021.2.3,145.80490088392528,
,,,,,,,,,,,,,,,,0,0,0,0,,,,,587.0749067999423,None,,,,,,,,,,,,,,,,,,,,,,,,,,,,,,,,,,,,,,,1639936529.3088558,547.0758662000299,None,1639936569.308486,,LS,001,2021_Dec_19_1846,food_intake,2021.2.3,145.80490088392528,
,,,,,,,,,,,,,,,,1,0,1,0,,,,,631.0765538997948,None,,,,,,,,,,,,,,,,,,,,,,,,,,,,,,,,,,,,,,,1639936573.3082342,591.0749470000155,None,1639936613.3107011,,LS,001,2021_Dec_19_1846,food_intake,2021.2.3,145.80490088392528,
,,,,,,,,,,,,,,,,,,,,,,,,,,,,,,,,,,,,,,,,,,,,,,,,,,,,,,,,,,,,,,,,,,,,1639936617.3085997,,,,,,,
